{
  "resourceType": "Bundle",
  "identifier": {
    "system": "urn:ietf:rfc:4122",
    "value": "urn:uuid:85fbedfc-f5fb-4cbd-8edb-fbcdad5051a5"
  },
  "type": "document",
  "timestamp": "2024-10-16T15:35:35.852+08:00",
  "entry": [
    {
      "fullUrl": "Composition/f0007515-9709-4f8c-8ac6-5d3c25c29a1f",
      "resource": {
        "resourceType": "Composition",
        "id": "f0007515-9709-4f8c-8ac6-5d3c25c29a1f",
        "extension": [
          {
            "url": "https://ehealth.gov.hk/FHIR/99999999-SendingLocation",
            "valueString": "CWB_17"
          },
          {
            "url": "https://ehealth.gov.hk/FHIR/99999999-ComplianceLevel",
            "valueString": "1"
          },
          {
            "url": "https://ehealth.gov.hk/FHIR/99999999-DomainVersion",
            "valueString": "eHRSS-2.0.3"
          },
          {
            "url": "https://ehealth.gov.hk/FHIR/99999999-UploadMode",
            "valueString": "NBL"
          }
        ],
        "status": "final",
        "type": {
          "coding": [
            {
              "system": "https://ehealth.gov.hk/FHIR",
              "display": "Hong Kong eHR Healthcare Document"
            }
          ],
          "text": "Hong Kong eHR Healthcare Document"
        },
        "subject": {
          "reference": "Patient/b67d676e-aea6-4e85-aa98-c1d91df4bcbd"
        },
        "date": "2024-10-16T15:35:35.852+08:00",
        "author": [
          {
            "reference": "PractitionerRole/b8441d8c-14c3-419a-b634-dd67eaff0fa7"
          }
        ],
        "title": "Hong Kong eHR Healthcare Document",
        "section": [
          {
            "title": "Laboratory Result (Anatomical Pathology Result) Records",
            "code": {
              "coding": [
                {
                  "system": "https://ehealth.gov.hk/FHIR/datadomain",
                  "code": "LABAP",
                  "display": "Laboratory Result (Anatomical Pathology Result) Records"
                }
              ],
              "text": "Laboratory Result (Anatomical Pathology Result) Records"
            },
            "entry": [
              {
                "extension": [
                  {
                    "url": "https://ehealth.gov.hk/FHIR/99999999-RecordCreateDatetime",
                    "valueDateTime": "2024-10-16T12:01:23.456+08:00"
                  },
                  {
                    "url": "https://ehealth.gov.hk/FHIR/99999999-RecordCreateInstIdentifier",
                    "valueString": "9907819043"
                  },
                  {
                    "url": "https://ehealth.gov.hk/FHIR/99999999-RecordCreateInstName",
                    "valueString": "ZZZ Verification Hospital"
                  },
                  {
                    "url": "https://ehealth.gov.hk/FHIR/99999999-RecordLastUpdateDatetime",
                    "valueDateTime": "2024-10-16T12:01:23.456+08:00"
                  },
                  {
                    "url": "https://ehealth.gov.hk/FHIR/99999999-RecordUpdateInstIndentifier",
                    "valueString": "9907819043"
                  },
                  {
                    "url": "https://ehealth.gov.hk/FHIR/99999999-RecordUpdateInstName",
                    "valueString": "ZZZ Verification Hospital"
                  },
                  {
                    "url": "https://ehealth.gov.hk/FHIR/99999999-TransactionDateTime",
                    "valueDateTime": "2017-11-10T12:00:00.000+08:00"
                  },
                  {
                    "url": "https://ehealth.gov.hk/FHIR/99999999-TransactionType",
                    "valueString": "U"
                  },
                  {
                    "url": "https://ehealth.gov.hk/FHIR/99999999-LastUpdateDateTime",
                    "valueDateTime": "2017-11-27T11:00:00.125+08:00"
                  }
                ],
                "reference": "DiagnosticReport/13324096-953c-4609-8887-e47a2b72195e",
                "identifier": {
                  "system": "https://ehealth.gov.hk/FHIR/HCP/local/Recordkey",
                  "value": "LAAM_20241017_16485541997"
                }
              }
            ]
          }
        ]
      }
    },
    {
      "fullUrl": "Patient/b67d676e-aea6-4e85-aa98-c1d91df4bcbd",
      "resource": {
        "resourceType": "Patient",
        "id": "b67d676e-aea6-4e85-aa98-c1d91df4bcbd",
        "identifier": [
          {
            "type": {
              "coding": [
                {
                  "system": "https://ehealth.gov.hk/FHIR/typeofID-ext",
                  "code": "EHRNO"
                }
              ]
            },
            "value": "395476415305"
          },
          {
            "type": {
              "coding": [
                {
                  "system": "https://ehealth.gov.hk/FHIR/typeofID-ext",
                  "code": "ID"
                }
              ]
            },
            "value": "J406082A"
          }
        ],
        "active": true,
        "name": [
          {
            "text": "TEST, J406082A",
            "family": "TEST",
            "given": [
              "J406082A"
            ]
          }
        ],
        "gender": "male",
        "birthDate": "1960-01-01"
      }
    },
    {
      "fullUrl": "DiagnosticReport/13324096-953c-4609-8887-e47a2b72195e",
      "resource": {
        "resourceType": "DiagnosticReport",
        "id": "13324096-953c-4609-8887-e47a2b72195e",
        "extension": [
          {
            "url": "https://ehealth.gov.hk/FHIR/1003520-LabReportStatusDesc",
            "valueString": "Final report"
          },
          {
            "url": "https://ehealth.gov.hk/FHIR/1003521-LabReportStatusLocalDesc",
            "valueString": "Original report"
          }
        ],
        "identifier": [
          {
            "system": "https://ehealth.gov.hk/HCP/RequestNum",
            "value": "17AH-004311"
          }
        ],
        "basedOn": [
          {
            "reference": "ServiceRequest/2e2d0db0-3f51-4698-982f-aa4a6d5e0dc7"
          }
        ],
        "status": "final",
        "category": [
          {
            "coding": [
              {
                "system": "https://ehealth.gov.hk/FHIR/LabCatCode",
                "code": "PATH",
                "display": "Anatomical Pathology"
              }
            ],
            "text": "Pathology"
          }
        ],
        "code": {
          "text": "Examination"
        },
        "subject": {
          "reference": "Patient/b67d676e-aea6-4e85-aa98-c1d91df4bcbd"
        },
        "effectiveDateTime": "2017-11-27T11:00:00+08:00",
        "issued": "2017-11-27T11:00:00+08:00",
        "performer": [
          {
            "reference": "PractitionerRole/7f0bf611-40a3-463f-b060-5cffac6f4da5"
          }
        ],
        "specimen": [
          {
            "reference": "Specimen/afa67d83-53c3-42d9-afc4-d93921192951"
          }
        ],
        "presentedForm": [
          {
            "contentType": "application/pdf",
            "data": "",
            "url": "file://9907819043.CWB_17.LABAP.LAAM_20241017_16485541997.SAMPLE-1.pdf.395476415305.20241016153535",
            "creation": "2017-11-13T14:29:00.000+08:00"
          }
        ]
      }
    },
    {
      "fullUrl": "ServiceRequest/2e2d0db0-3f51-4698-982f-aa4a6d5e0dc7",
      "resource": {
        "resourceType": "ServiceRequest",
        "id": "2e2d0db0-3f51-4698-982f-aa4a6d5e0dc7",
        "identifier": [
          {
            "system": "https://ehealth.gov.hk/HCP/OrderNum",
            "value": "8088450656:OR1101606192"
          }
        ],
        "status": "completed",
        "intent": "order",
        "subject": {
          "reference": "Patient/b67d676e-aea6-4e85-aa98-c1d91df4bcbd"
        },
        "requester": {
          "reference": "PractitionerRole/b8441d8c-14c3-419a-b634-dd67eaff0fa7"
        }
      }
    },
    {
      "fullUrl": "PractitionerRole/b8441d8c-14c3-419a-b634-dd67eaff0fa7",
      "resource": {
        "resourceType": "PractitionerRole",
        "id": "b8441d8c-14c3-419a-b634-dd67eaff0fa7",
        "organization": {
          "reference": "Organization/2c8a7004-6bc0-4ffc-879c-e284eba04e99"
        }
      }
    },
    {
      "fullUrl": "Organization/2c8a7004-6bc0-4ffc-879c-e284eba04e99",
      "resource": {
        "resourceType": "Organization",
        "id": "2c8a7004-6bc0-4ffc-879c-e284eba04e99",
        "identifier": [
          {
            "system": "https://ehealth.gov.hk/FHIR/pvdr",
            "value": "99087819043"
          }
        ],
        "name": "ZZZ VERIFICATION HOSPITAL",
        "alias": [
          "ZZZ Hospital"
        ]
      }
    },
    {
      "fullUrl": "PractitionerRole/7f0bf611-40a3-463f-b060-5cffac6f4da5",
      "resource": {
        "resourceType": "PractitionerRole",
        "id": "7f0bf611-40a3-463f-b060-5cffac6f4da5",
        "organization": {
          "reference": "Organization/49a9c37d-1918-4f5a-a7bb-d93ac5ff86e3"
        }
      }
    },
    {
      "fullUrl": "Organization/49a9c37d-1918-4f5a-a7bb-d93ac5ff86e3",
      "resource": {
        "resourceType": "Organization",
        "id": "49a9c37d-1918-4f5a-a7bb-d93ac5ff86e3",
        "identifier": [
          {
            "system": "https://ehealth.gov.hk/pvdr",
            "value": "9907819043"
          }
        ],
        "alias": [
          "ZZZ Verification Hospital"
        ]
      }
    },
    {
      "fullUrl": "Specimen/afa67d83-53c3-42d9-afc4-d93921192951",
      "resource": {
        "resourceType": "Specimen",
        "id": "afa67d83-53c3-42d9-afc4-d93921192951",
        "extension": [
          {
            "url": "https://ehealth.gov.hk/FHIR/1003530-SpecimenDetail",
            "valueString": "Colon"
          }
        ],
        "subject": {
          "reference": "Patient/b67d676e-aea6-4e85-aa98-c1d91df4bcbd"
        },
        "request": [
          {
            "reference": "ServiceRequest/2e2d0db0-3f51-4698-982f-aa4a6d5e0dc7"
          }
        ]
      }
    }
  ]
}
