{
  "resourceType": "Bundle",
  "identifier": {
    "system": "urn:ietf:rfc:3986",
    "value": "urn:uuid:031164e4-66b2-48d9-aecc-554da609d1ca"
  },
  "type": "document",
  "timestamp": "2022-12-01T05:04:48.865+08:00",
  "entry": [
    {
      "fullUrl": "Composition/7919884a-5c37-4b0a-bc94-5c8c1120b7e1",
      "resource": {
        "resourceType": "Composition",
        "id": "7919884a-5c37-4b0a-bc94-5c8c1120b7e1",
        "extension": [
          {
            "url": "https://ehealth.gov.hk/FHIR/99999999-SendingLocation",
            "valueString": "CWB_17"
          },
          {
            "url": "https://ehealth.gov.hk/FHIR/99999999-ComplianceLevel",
            "valueString": "3"
          },
          {
            "url": "https://ehealth.gov.hk/FHIR/99999999-DomainVersion",
            "valueString": "eHRSS-1.4.3"
          },
          {
            "url": "https://ehealth.gov.hk/FHIR/99999999-UploadMode",
            "valueString": "NBL"
          }
        ],
        "status": "final",
        "type": {
          "coding": [
            {
              "system": "https://ehealth.gov.hk/FHIR/",
              "display": "Hong Kong eHR Healthcare Document"
            }
          ],
          "text": "Hong Kong eHR Healthcare Document"
        },
        "subject": {
          "reference": "Patient/419a662e-cf78-4d99-be8f-9794126dbec2"
        },
        "date": "2022-12-01T05:04:48.000+08:00",
        "author": [
          {
            "reference": "Organization/25ab1b10-ae53-49da-9a05-30a241873a6a"
          }
        ],
        "title": "Hong Kong eHR Healthcare Document",
        "section": [
          {
            "title": "Laboratory Result (General Result) Records",
            "code": {
              "coding": [
                {
                  "system": "https://ehealth.gov.hk/fhir/datadomain",
                  "code": "LABGEN",
                  "display": "Laboratory Result (General Result) Records"
                }
              ],
              "text": "Laboratory Result (General Result) Records"
            },
            "entry": [
              {
                "extension": [
                  {
                    "url": "https://ehealth.gov.hk/FHIR/99999999-RecordCreateDatetime",
                    "valueDateTime": "2023-12-07T08:22:38.000+08:00"
                  },
                  {
                    "url": "https://ehealth.gov.hk/FHIR/99999999-RecordCreateInstIdentifier",
                    "valueString": "9006662656"
                  },
                  {
                    "url": "https://ehealth.gov.hk/FHIR/99999999-RecordCreateInstName",
                    "valueString": "LAAM Laboratory"
                  },
                  {
                    "url": "https://ehealth.gov.hk/FHIR/99999999-RecordLastUpdateDatetime",
                    "valueDateTime": "2023-12-07T08:22:38.000+08:00"
                  },
                  {
                    "url": "https://ehealth.gov.hk/FHIR/99999999-RecordUpdateInstIndentifier",
                    "valueString": "9006662656"
                  },
                  {
                    "url": "https://ehealth.gov.hk/FHIR/99999999-RecordUpdateInstName",
                    "valueString": "LAAM Laboratory"
                  },
                  {
                    "url": "https://ehealth.gov.hk/FHIR/99999999-TransactionDateTime",
                    "valueDateTime": "2023-12-07T08:22:38.000+08:00"
                  },
                  {
                    "url": "https://ehealth.gov.hk/FHIR/99999999-TransactionType",
                    "valueString": "U"
                  },
                  {
                    "url": "https://ehealth.gov.hk/FHIR/99999999-LastUpdateDateTime",
                    "valueDateTime": "2017-03-04T08:30:00.000+08:00"
                  }
                ],
                "reference": "DiagnosticReport/854f5ae8-9366-425a-b13c-49356395f2c0",
                "identifier": {
                  "system": "https://ehealth.gov.hk/FHIR/HCP/local/Recordkey",
                  "value": "832387@9907819043@LABGEN"
                }
              },
              {
                "extension": [
                  {
                    "url": "https://ehealth.gov.hk/FHIR/99999999-RecordCreateDatetime",
                    "valueDateTime": "2023-12-07T08:22:38.000+08:00"
                  },
                  {
                    "url": "https://ehealth.gov.hk/FHIR/99999999-RecordCreateInstIdentifier",
                    "valueString": "9006662656"
                  },
                  {
                    "url": "https://ehealth.gov.hk/FHIR/99999999-RecordCreateInstName",
                    "valueString": "LAAM Laboratory"
                  },
                  {
                    "url": "https://ehealth.gov.hk/FHIR/99999999-RecordLastUpdateDatetime",
                    "valueDateTime": "2023-12-07T08:22:38.000+08:00"
                  },
                  {
                    "url": "https://ehealth.gov.hk/FHIR/99999999-RecordUpdateInstIndentifier",
                    "valueString": "9006662656"
                  },
                  {
                    "url": "https://ehealth.gov.hk/FHIR/99999999-RecordUpdateInstName",
                    "valueString": "LAAM Laboratory"
                  },
                  {
                    "url": "https://ehealth.gov.hk/FHIR/99999999-TransactionDateTime",
                    "valueDateTime": "2023-12-07T08:22:38.000+08:00"
                  },
                  {
                    "url": "https://ehealth.gov.hk/FHIR/99999999-TransactionType",
                    "valueString": "U"
                  },
                  {
                    "url": "https://ehealth.gov.hk/FHIR/99999999-LastUpdateDateTime",
                    "valueDateTime": "2017-03-04T08:30:00.000+08:00"
                  }
                ],
                "reference": "DiagnosticReport/2ceeeccd-c78b-4d77-994c-6c6f572cd0c7",
                "identifier": {
                  "system": "https://ehealth.gov.hk/FHIR/HCP/local/Recordkey",
                  "value": "832387@9907819043@LABGEN"
                }
              },
              {
                "extension": [
                  {
                    "url": "https://ehealth.gov.hk/FHIR/99999999-RecordCreateDatetime",
                    "valueDateTime": "2023-12-07T08:22:38.000+08:00"
                  },
                  {
                    "url": "https://ehealth.gov.hk/FHIR/99999999-RecordCreateInstIdentifier",
                    "valueString": "9006662656"
                  },
                  {
                    "url": "https://ehealth.gov.hk/FHIR/99999999-RecordCreateInstName",
                    "valueString": "LAAM Laboratory"
                  },
                  {
                    "url": "https://ehealth.gov.hk/FHIR/99999999-RecordLastUpdateDatetime",
                    "valueDateTime": "2023-12-07T08:22:38.000+08:00"
                  },
                  {
                    "url": "https://ehealth.gov.hk/FHIR/99999999-RecordUpdateInstIndentifier",
                    "valueString": "9006662656"
                  },
                  {
                    "url": "https://ehealth.gov.hk/FHIR/99999999-RecordUpdateInstName",
                    "valueString": "LAAM Laboratory"
                  },
                  {
                    "url": "https://ehealth.gov.hk/FHIR/99999999-TransactionDateTime",
                    "valueDateTime": "2023-12-07T08:22:38.000+08:00"
                  },
                  {
                    "url": "https://ehealth.gov.hk/FHIR/99999999-TransactionType",
                    "valueString": "U"
                  },
                  {
                    "url": "https://ehealth.gov.hk/FHIR/99999999-LastUpdateDateTime",
                    "valueDateTime": "2017-03-04T08:30:00.000+08:00"
                  }
                ],
                "reference": "DiagnosticReport/9e581da6-581d-4cd0-8b8f-4b729c1d0932",
                "identifier": {
                  "system": "https://ehealth.gov.hk/FHIR/HCP/local/Recordkey",
                  "value": "832387@9907819043@LABGEN"
                }
              },
              {
                "extension": [
                  {
                    "url": "https://ehealth.gov.hk/FHIR/99999999-RecordCreateDatetime",
                    "valueDateTime": "2023-12-07T08:22:38.000+08:00"
                  },
                  {
                    "url": "https://ehealth.gov.hk/FHIR/99999999-RecordCreateInstIdentifier",
                    "valueString": "9006662656"
                  },
                  {
                    "url": "https://ehealth.gov.hk/FHIR/99999999-RecordCreateInstName",
                    "valueString": "LAAM Laboratory"
                  },
                  {
                    "url": "https://ehealth.gov.hk/FHIR/99999999-RecordLastUpdateDatetime",
                    "valueDateTime": "2023-12-07T08:22:38.000+08:00"
                  },
                  {
                    "url": "https://ehealth.gov.hk/FHIR/99999999-RecordUpdateInstIndentifier",
                    "valueString": "9006662656"
                  },
                  {
                    "url": "https://ehealth.gov.hk/FHIR/99999999-RecordUpdateInstName",
                    "valueString": "LAAM Laboratory"
                  },
                  {
                    "url": "https://ehealth.gov.hk/FHIR/99999999-TransactionDateTime",
                    "valueDateTime": "2023-12-07T08:22:38.000+08:00"
                  },
                  {
                    "url": "https://ehealth.gov.hk/FHIR/99999999-TransactionType",
                    "valueString": "U"
                  },
                  {
                    "url": "https://ehealth.gov.hk/FHIR/99999999-LastUpdateDateTime",
                    "valueDateTime": "2017-03-04T08:30:00.000+08:00"
                  }
                ],
                "reference": "DiagnosticReport/3439322d-ab3c-46af-a991-184ad7bc8cc5",
                "identifier": {
                  "system": "https://ehealth.gov.hk/FHIR/HCP/local/Recordkey",
                  "value": "832387@9907819043@LABGEN"
                }
              },
              {
                "extension": [
                  {
                    "url": "https://ehealth.gov.hk/FHIR/99999999-RecordCreateDatetime",
                    "valueDateTime": "2023-12-07T08:22:38.000+08:00"
                  },
                  {
                    "url": "https://ehealth.gov.hk/FHIR/99999999-RecordCreateInstIdentifier",
                    "valueString": "9006662656"
                  },
                  {
                    "url": "https://ehealth.gov.hk/FHIR/99999999-RecordCreateInstName",
                    "valueString": "LAAM Laboratory"
                  },
                  {
                    "url": "https://ehealth.gov.hk/FHIR/99999999-RecordLastUpdateDatetime",
                    "valueDateTime": "2023-12-07T08:22:38.000+08:00"
                  },
                  {
                    "url": "https://ehealth.gov.hk/FHIR/99999999-RecordUpdateInstIndentifier",
                    "valueString": "9006662656"
                  },
                  {
                    "url": "https://ehealth.gov.hk/FHIR/99999999-RecordUpdateInstName",
                    "valueString": "LAAM Laboratory"
                  },
                  {
                    "url": "https://ehealth.gov.hk/FHIR/99999999-TransactionDateTime",
                    "valueDateTime": "2023-12-07T08:22:38.000+08:00"
                  },
                  {
                    "url": "https://ehealth.gov.hk/FHIR/99999999-TransactionType",
                    "valueString": "U"
                  },
                  {
                    "url": "https://ehealth.gov.hk/FHIR/99999999-LastUpdateDateTime",
                    "valueDateTime": "2017-03-04T08:30:00.000+08:00"
                  }
                ],
                "reference": "DiagnosticReport/ae442958-7a6e-46f4-83ad-5c0a455204fd",
                "identifier": {
                  "system": "https://ehealth.gov.hk/FHIR/HCP/local/Recordkey",
                  "value": "832387@9907819043@LABGEN"
                }
              }
            ]
          }
        ]
      }
    },
    {
      "fullUrl": "Patient/419a662e-cf78-4d99-be8f-9794126dbec2",
      "resource": {
        "resourceType": "Patient",
        "id": "419a662e-cf78-4d99-be8f-9794126dbec2",
        "meta": {
          "versionId": "1",
          "lastUpdated": "2022-09-27T15:22:49.093+08:00"
        },
        "identifier": [
          {
            "type": {
              "coding": [
                {
                  "system": "https://ehealth.gov.hk/fhir/typeofID-ext",
                  "code": "EHRNO"
                }
              ]
            },
            "value": "944272043043"
          },
          {
            "type": {
              "coding": [
                {
                  "system": "https://ehealth.gov.hk/fhir/typeofID-ext",
                  "code": "ID"
                }
              ]
            },
            "value": "YD1298051"
          }
        ],
        "active": true,
        "name": [
          {
            "use": "official",
            "text": "TEST, LAAM PARTICIPANT A",
            "family": "TEST",
            "given": [
              "LAAM PARTICIPANT A"
            ]
          }
        ],
        "gender": "unknown",
        "birthDate": "2000-08-04"
      }
    },
    {
      "fullUrl": "DiagnosticReport/b892b17c-8469-4322-bacc-bc2ba4590fd9",
      "resource": {
        "resourceType": "DiagnosticReport",
        "id": "b892b17c-8469-4322-bacc-bc2ba4590fd9",
        "meta": {
          "versionId": "1",
          "lastUpdated": "2022-09-27T15:22:56.319+08:00"
        },
        "extension": [
          {
            "url": "https://ehealth.gov.hk/FHIR/1003520-LabReportStatusDesc",
            "valueString": "Final report"
          },
          {
            "url": "https://ehealth.gov.hk/FHIR/1003521-LabReportStatusLocalDesc",
            "valueString": "Final Report"
          }
        ],
        "identifier": [
          {
            "system": "https://ehealth.gov.hk/FHIR/HCP/local/RequestNum",
            "value": "21017888"
          }
        ],
        "basedOn": [
          {
            "reference": "ServiceRequest/31ccc180-e5f4-4a28-bbb5-788227ac36df"
          }
        ],
        "status": "final",
        "category": [
          {
            "coding": [
              {
                "system": "https://ehealth.org.hk/fhir/LabCatCode",
                "code": "CHEM",
                "display": "Chemical Pathology"
              }
            ],
            "text": "Chemistry"
          }
        ],
        "code": {
          "coding": [
            {
              "system": "https://ehealth.gov.hk/FHIR/HCP/local/PanelCode",
              "code": "TUM6",
              "display": "Tumor Markers (M)"
            }
          ]
        },
        "subject": {
          "reference": "Patient/419a662e-cf78-4d99-be8f-9794126dbec2"
        },
        "effectiveDateTime": "2021-02-25T10:35:15.000+08:00",
        "issued": "2021-02-25T15:24:52.000+08:00",
        "performer": [
          {
            "reference": "PractitionerRole/d6a56cc4-0084-4fc1-a277-36ddb689b1bf"
          }
        ],
        "resultsInterpreter": [
          {
            "reference": "PractitionerRole/787d173d-fab7-4ac3-86fa-1f429624e9ad"
          }
        ],
        "specimen": [
          {
            "reference": "Specimen/b74bd922-5304-4f28-bdc9-c249a18ab43a"
          }
        ],
        "result": [
          {
            "reference": "Observation/7f4c1ad4-232d-4d2a-b4b1-baf18c32e704"
          },
          {
            "reference": "Observation/ecce73f8-c791-4c84-bd93-9eca3feae683"
          },
          {
            "reference": "Observation/fdc1c6ec-d22b-4a97-8c39-2c7143fa2f3c3"
          }
        ],
        "presentedForm": [
          {
            "contentType": "application/pdf",
            "data": "",
            "url": "file://9907819043.CWB_17.LABGEN.832387@9907819043@LABGEN.SAMPLE-1.pdf.944272043043.20221201050448",
            "creation": "2017-11-13T14:29:00.000+08:00"
          }
        ]
      }
    },
    {
      "fullUrl": "DiagnosticReport/cea19ea9-2acc-4aec-bde5-d3d131560009",
      "resource": {
        "resourceType": "DiagnosticReport",
        "id": "cea19ea9-2acc-4aec-bde5-d3d131560009",
        "meta": {
          "versionId": "1",
          "lastUpdated": "2022-09-27T15:22:56.319+08:00"
        },
        "extension": [
          {
            "url": "https://ehealth.gov.hk/FHIR/1003520-LabReportStatusDesc",
            "valueString": "Final report"
          },
          {
            "url": "https://ehealth.gov.hk/FHIR/1003521-LabReportStatusLocalDesc",
            "valueString": "Final report"
          }
        ],
        "identifier": [
          {
            "system": "https://ehealth.gov.hk/FHIR/HCP/local/RequestNum",
            "value": "21017888"
          }
        ],
        "basedOn": [
          {
            "reference": "ServiceRequest/31ccc180-e5f4-4a28-bbb5-788227ac36df"
          }
        ],
        "status": "final",
        "category": [
          {
            "coding": [
              {
                "system": "https://ehealth.org.hk/fhir/LabCatCode",
                "code": "CHEM",
                "display": "Chemical Pathology"
              }
            ],
            "text": "Chemistry"
          }
        ],
        "code": {
          "coding": [
            {
              "system": "https://ehealth.gov.hk/FHIR/HCP/local/PanelCode",
              "code": "SPCM",
              "display": "Smart PC (M)"
            }
          ]
        },
        "subject": {
          "reference": "Patient/419a662e-cf78-4d99-be8f-9794126dbec2"
        },
        "effectiveDateTime": "2021-02-25T10:35:15.000+08:00",
        "issued": "2021-02-25T15:24:52.000+08:00",
        "performer": [
          {
            "reference": "PractitionerRole/d6a56cc4-0084-4fc1-a277-36ddb689b1bf"
          }
        ],
        "specimen": [
          {
            "reference": "Specimen/b74bd922-5304-4f28-bdc9-c249a18ab43a"
          }
        ],
        "result": [
          {
            "reference": "Observation/ece56621-5cee-4256-962a-16947d1444344"
          }
        ]
      }
    },
    {
      "fullUrl": "DiagnosticReport/854f5ae8-9366-425a-b13c-49356395f2c0",
      "resource": {
        "resourceType": "DiagnosticReport",
        "id": "854f5ae8-9366-425a-b13c-49356395f2c0",
        "meta": {
          "versionId": "1",
          "lastUpdated": "2022-09-27T15:22:56.319+08:00"
        },
        "extension": [
          {
            "url": "https://ehealth.gov.hk/FHIR/1003520-LabReportStatusDesc",
            "valueString": "Final report"
          },
          {
            "url": "https://ehealth.gov.hk/FHIR/1003521-LabReportStatusLocalDesc",
            "valueString": "Final report"
          }
        ],
        "identifier": [
          {
            "system": "https://ehealth.gov.hk/FHIR/HCP/local/RequestNum",
            "value": "21017888"
          }
        ],
        "basedOn": [
          {
            "reference": "ServiceRequest/31ccc180-e5f4-4a28-bbb5-788227ac36df"
          }
        ],
        "status": "final",
        "category": [
          {
            "coding": [
              {
                "system": "https://ehealth.org.hk/fhir/LabCatCode",
                "code": "CHEM",
                "display": "Chemical Pathology"
              }
            ],
            "text": "Chemistry"
          }
        ],
        "code": {
          "coding": [
            {
              "system": "https://ehealth.gov.hk/FHIR/HCP/local/PanelCode",
              "code": "DIAB1",
              "display": "Diabets"
            }
          ]
        },
        "subject": {
          "reference": "Patient/419a662e-cf78-4d99-be8f-9794126dbec2"
        },
        "effectiveDateTime": "2021-02-25T10:35:15.000+08:00",
        "issued": "2021-02-25T11:50:02.000+08:00",
        "performer": [
          {
            "reference": "PractitionerRole/d6a56cc4-0084-4fc1-a277-36ddb689b1bf"
          }
        ],
        "specimen": [
          {
            "reference": "Specimen/b74bd922-5304-4f28-bdc9-c249a18ab43a"
          }
        ],
        "result": [
          {
            "reference": "Observation/2574469e-818a-4c91-b943-9e652b1e2de6"
          },
          {
            "reference": "Observation/b1315b24-d7f1-4073-94b0-d3b4d24d19a1"
          },
          {
            "reference": "Observation/52b57c3d-caa3-4aea-a475-07785c377541"
          }
        ]
      }
    },
    {
      "fullUrl": "DiagnosticReport/2ceeeccd-c78b-4d77-994c-6c6f572cd0c7",
      "resource": {
        "resourceType": "DiagnosticReport",
        "id": "2ceeeccd-c78b-4d77-994c-6c6f572cd0c7",
        "meta": {
          "versionId": "1",
          "lastUpdated": "2022-09-27T15:22:56.319+08:00"
        },
        "extension": [
          {
            "url": "https://ehealth.gov.hk/FHIR/1003520-LabReportStatusDesc",
            "valueString": "Final report"
          },
          {
            "url": "https://ehealth.gov.hk/FHIR/1003521-LabReportStatusLocalDesc",
            "valueString": "Final report"
          }
        ],
        "identifier": [
          {
            "system": "https://ehealth.gov.hk/FHIR/HCP/local/RequestNum",
            "value": "21017888"
          }
        ],
        "basedOn": [
          {
            "reference": "ServiceRequest/31ccc180-e5f4-4a28-bbb5-788227ac36df"
          }
        ],
        "status": "final",
        "category": [
          {
            "coding": [
              {
                "system": "https://ehealth.org.hk/fhir/LabCatCode",
                "code": "CHEM",
                "display": "Chemical Pathology"
              }
            ],
            "text": "Chemistry"
          }
        ],
        "code": {
          "coding": [
            {
              "system": "https://ehealth.gov.hk/FHIR/HCP/local/PanelCode",
              "code": "EGFR",
              "display": "eGFR"
            }
          ]
        },
        "subject": {
          "reference": "Patient/419a662e-cf78-4d99-be8f-9794126dbec2"
        },
        "effectiveDateTime": "2021-02-25T10:35:15.000+08:00",
        "issued": "2021-02-25T11:50:02.000+08:00",
        "specimen": [
          {
            "reference": "Specimen/b74bd922-5304-4f28-bdc9-c249a18ab43a"
          }
        ],
        "result": [
          {
            "reference": "Observation/6bb9ab62-90ef-4b5c-ba8d-1bf713b34887"
          }
        ]
      }
    },
    {
      "fullUrl": "DiagnosticReport/9e581da6-581d-4cd0-8b8f-4b729c1d0932",
      "resource": {
        "resourceType": "DiagnosticReport",
        "id": "9e581da6-581d-4cd0-8b8f-4b729c1d0932",
        "meta": {
          "versionId": "1",
          "lastUpdated": "2022-09-27T15:22:56.319+08:00"
        },
        "extension": [
          {
            "url": "https://ehealth.gov.hk/FHIR/1003520-LabReportStatusDesc",
            "valueString": "Final report"
          },
          {
            "url": "https://ehealth.gov.hk/FHIR/1003521-LabReportStatusLocalDesc",
            "valueString": "Final report"
          }
        ],
        "identifier": [
          {
            "system": "https://ehealth.gov.hk/FHIR/HCP/local/RequestNum",
            "value": "21017888"
          }
        ],
        "basedOn": [
          {
            "reference": "ServiceRequest/31ccc180-e5f4-4a28-bbb5-788227ac36df"
          }
        ],
        "status": "final",
        "category": [
          {
            "coding": [
              {
                "system": "https://ehealth.org.hk/fhir/LabCatCode",
                "code": "CHEM",
                "display": "Chemical Pathology"
              }
            ],
            "text": "Chemistry"
          }
        ],
        "code": {
          "coding": [
            {
              "system": "https://ehealth.gov.hk/FHIR/HCP/PanelCode",
              "code": "LFT",
              "display": "Liver Function Test"
            }
          ]
        },
        "subject": {
          "reference": "Patient/419a662e-cf78-4d99-be8f-9794126dbec2"
        },
        "effectiveDateTime": "2021-02-25T10:35:15.000+08:00",
        "issued": "2021-02-25T11:50:02.000+08:00",
        "performer": [
          {
            "reference": "PractitionerRole/d6a56cc4-0084-4fc1-a277-36ddb689b1bf"
          }
        ],
        "specimen": [
          {
            "reference": "Specimen/b74bd922-5304-4f28-bdc9-c249a18ab43a"
          }
        ],
        "result": [
          {
            "reference": "Observation/e8a4ca9e-436b-4bc5-aadc-e5cdda51e36c"
          },
          {
            "reference": "Observation/62cbd4b4-383b-4883-a1dd-83dcdacf244f"
          },
          {
            "reference": "Observation/e6f6455f-cc51-40b5-af36-32aa307041e4"
          },
          {
            "reference": "Observation/975dc579-7da3-4fb7-8fb7-73fd8fe57c38"
          },
          {
            "reference": "Observation/c8b4ce1e-37e6-4fd5-996b-578c188023c4"
          },
          {
            "reference": "Observation/cfa827a4-6ec1-4b2a-b915-fe376151190e"
          },
          {
            "reference": "Observation/3aba85cd-ad22-4144-887c-213993ee320c"
          },
          {
            "reference": "Observation/f427c8f1-2d17-43c4-9110-c62e9e12be8a"
          },
          {
            "reference": "Observation/1c93923e-86a7-4fc6-88f9-faff36251aec"
          },
          {
            "reference": "Observation/ac70b528-8a93-4447-8802-98db3891b32d"
          }
        ]
      }
    },
    {
      "fullUrl": "DiagnosticReport/3439322d-ab3c-46af-a991-184ad7bc8cc5",
      "resource": {
        "resourceType": "DiagnosticReport",
        "id": "3439322d-ab3c-46af-a991-184ad7bc8cc5",
        "meta": {
          "versionId": "1",
          "lastUpdated": "2022-09-27T15:22:56.319+08:00"
        },
        "extension": [
          {
            "url": "https://ehealth.gov.hk/FHIR/1003520-LabReportStatusDesc",
            "valueString": "Final report"
          },
          {
            "url": "https://ehealth.gov.hk/FHIR/1003521-LabReportStatusLocalDesc",
            "valueString": "Final report"
          }
        ],
        "identifier": [
          {
            "system": "https://ehealth.gov.hk/FHIR/HCP/local/RequestNum",
            "value": "21017888"
          }
        ],
        "basedOn": [
          {
            "reference": "ServiceRequest/31ccc180-e5f4-4a28-bbb5-788227ac36df"
          }
        ],
        "status": "final",
        "category": [
          {
            "coding": [
              {
                "system": "https://ehealth.org.hk/fhir/LabCatCode",
                "code": "CHEM",
                "display": "Chemical Pathology"
              }
            ],
            "text": "Chemistry"
          }
        ],
        "code": {
          "coding": [
            {
              "system": "https://ehealth.gov.hk/FHIR/HCP/local/PanelCode",
              "code": "LIPID",
              "display": "Lipid"
            }
          ]
        },
        "subject": {
          "reference": "Patient/419a662e-cf78-4d99-be8f-9794126dbec2"
        },
        "effectiveDateTime": "2021-02-25T10:35:15.000+08:00",
        "issued": "2021-02-25T11:50:02.000+08:00",
        "performer": [
          {
            "reference": "PractitionerRole/3af5c1f3-017d-422c-b2ea-3edbd7036f91"
          }
        ],
        "specimen": [
          {
            "reference": "Specimen/b74bd922-5304-4f28-bdc9-c249a18ab43a"
          }
        ],
        "result": [
          {
            "reference": "Observation/552f42b9-9423-4a17-8baa-3d08b92e6cd4"
          },
          {
            "reference": "Observation/7062ac49-0c2f-4a66-9851-a94d71e5bb77"
          },
          {
            "reference": "Observation/9c9f1ae1-a365-4b72-b17c-a59c770fe2d2"
          },
          {
            "reference": "Observation/ffc940f3-1c63-4fd5-a8bd-eababd895e6c"
          },
          {
            "reference": "Observation/257dc93b-ae7b-4127-85cb-fba81168cb74"
          },
          {
            "reference": "Observation/8e8515cf-07d3-4455-9296-46afe004ac58"
          }
        ]
      }
    },
    {
      "fullUrl": "DiagnosticReport/ae442958-7a6e-46f4-83ad-5c0a455204fd",
      "resource": {
        "resourceType": "DiagnosticReport",
        "id": "ae442958-7a6e-46f4-83ad-5c0a455204fd",
        "meta": {
          "versionId": "1",
          "lastUpdated": "2022-09-27T15:22:56.319+08:00"
        },
        "extension": [
          {
            "url": "https://ehealth.gov.hk/FHIR/1003520-LabReportStatusDesc",
            "valueString": "Final report"
          },
          {
            "url": "https://ehealth.gov.hk/FHIR/1003521-LabReportStatusLocalDesc",
            "valueString": "Final report"
          }
        ],
        "identifier": [
          {
            "system": "https://ehealth.gov.hk/FHIR/HCP/local/RequestNum",
            "value": "21017888"
          }
        ],
        "basedOn": [
          {
            "reference": "ServiceRequest/31ccc180-e5f4-4a28-bbb5-788227ac36df"
          }
        ],
        "status": "final",
        "category": [
          {
            "coding": [
              {
                "system": "https://ehealth.org.hk/fhir/LabCatCode",
                "code": "CHEM",
                "display": "Chemical Pathology"
              }
            ],
            "text": "Chemistry"
          }
        ],
        "code": {
          "coding": [
            {
              "system": "https://ehealth.gov.hk/FHIR/HCP/local/PanelCode",
              "code": "RFT",
              "display": "Renal Funct. T"
            }
          ]
        },
        "subject": {
          "reference": "Patient/419a662e-cf78-4d99-be8f-9794126dbec2"
        },
        "effectiveDateTime": "2021-02-25T10:35:15.000+08:00",
        "issued": "2021-02-25T11:50:02.000+08:00",
        "performer": [
          {
            "reference": "PractitionerRole/3af5c1f3-017d-422c-b2ea-3edbd7036f91"
          }
        ],
        "specimen": [
          {
            "reference": "Specimen/b74bd922-5304-4f28-bdc9-c249a18ab43a"
          }
        ],
        "result": [
          {
            "reference": "Observation/1cd35744-8a31-47e2-9853-c6e48bb78eb3"
          },
          {
            "reference": "Observation/2ab8631f-2720-4ccf-bf14-09362783b005"
          },
          {
            "reference": "Observation/6e34c0ea-4650-46c3-9d48-885a58e32023"
          },
          {
            "reference": "Observation/58a431b5-cca0-41fb-bab1-175acc6b76f8"
          },
          {
            "reference": "Observation/ca34b885-8b0b-4d53-9b0b-94408216e491"
          },
          {
            "reference": "Observation/79bddc5d-83d3-4b64-a3de-5b8c184e2358"
          },
          {
            "reference": "Observation/5fb99a45-b723-4b6b-81e7-70b15763ac28"
          },
          {
            "reference": "Observation/e4958b52-9679-403a-89b5-a4035e0940a6"
          },
          {
            "reference": "Observation/598392b8-1ad3-4ffa-bb1b-7983f69cf252"
          }
        ]
      }
    },
    {
      "fullUrl": "ServiceRequest/31ccc180-e5f4-4a28-bbb5-788227ac36df",
      "resource": {
        "resourceType": "ServiceRequest",
        "id": "31ccc180-e5f4-4a28-bbb5-788227ac36df",
        "identifier": [
          {
            "system": "https://ehealth.gov.hk/HCP/OrderNum",
            "value": "8088450656:12345678900000000111"
          }
        ],
        "status": "completed",
        "intent": "order",
        "subject": {
          "reference": "Patient/419a662e-cf78-4d99-be8f-9794126dbec2"
        },
        "encounter": {
          "reference": "Encounter/cee5d6cc-bf18-4622-81ec-82757184f487"
        },
        "requester": {
          "reference": "PractitionerRole/134beb51-92ec-4ce8-8a38-75e1f7460357"
        },
        "supportingInfo": [
          {
            "reference": "Laboratory test request clinical information",
            "display": "?PR bleed ?hematuria"
          }
        ]
      }
    },
    {
      "fullUrl": "Encounter/cee5d6cc-bf18-4622-81ec-82757184f487",
      "resource": {
        "resourceType": "Encounter",
        "id": "cee5d6cc-bf18-4622-81ec-82757184f487",
        "identifier": [
          {
            "system": "https://ehealth.gov.hk/FHIR/HCP/local/EpisodeNum",
            "value": "3841084"
          }
        ],
        "status": "finished",
        "class": [
          {
            "coding": [
              {
                "system": "https://ehealth.gov.hk/FHIR/class",
                "code": "UNKNOWN",
                "display": "Unknown status"
              }
            ]
          }
        ],
        "subject": {
          "reference": "Patient/419a662e-cf78-4d99-be8f-9794126dbec2"
        }
      }
    },
    {
      "fullUrl": "PractitionerRole/134beb51-92ec-4ce8-8a38-75e1f7460357",
      "resource": {
        "resourceType": "PractitionerRole",
        "id": "134beb51-92ec-4ce8-8a38-75e1f7460357",
        "organization": {
          "reference": "Organization/25ab1b10-ae53-49da-9a05-30a241873a6a"
        },
        "practitioner": {
          "reference": "Practitioner/fbddcbd8-f44d-4281-a2da-2657e5047cfc"
        }
      }
    },
    {
      "fullUrl": "PractitionerRole/787d173d-fab7-4ac3-86fa-1f429624e9ad",
      "resource": {
        "resourceType": "PractitionerRole",
        "id": "787d173d-fab7-4ac3-86fa-1f429624e9ad",
        "practitioner": {
          "reference": "Practitioner/31a400a6-98b0-481b-a2c1-492dbcb6fec0"
        }
      }
    },
    {
      "fullUrl": "Practitioner/31a400a6-98b0-481b-a2c1-492dbcb6fec0",
      "resource": {
        "resourceType": "Practitioner",
        "id": "31a400a6-98b0-481b-a2c1-492dbcb6fec0",
        "name": [
          {
            "text": "Dr. LAM HUNG CHUNG BENSON"
          }
        ]
      }
    },
    {
      "fullUrl": "Practitioner/fbddcbd8-f44d-4281-a2da-2657e5047cfc",
      "resource": {
        "resourceType": "Practitioner",
        "id": "fbddcbd8-f44d-4281-a2da-2657e5047cfc",
        "name": [
          {
            "text": "Dr. CHOW, KING LONG"
          }
        ]
      }
    },
    {
      "fullUrl": "Organization/25ab1b10-ae53-49da-9a05-30a241873a6a",
      "resource": {
        "resourceType": "Organization",
        "id": "25ab1b10-ae53-49da-9a05-30a241873a6a",
        "identifier": [
          {
            "system": "https://ehealth.gov.hk/fhir/pvdr",
            "value": "ZZZ HOSP"
          }
        ],
        "name": "ZZZ HOSPITAL",
        "alias": [
          "ZZZ VERIFICATION HOSPITAL"
        ]
      }
    },
    {
      "fullUrl": "PractitionerRole/d6a56cc4-0084-4fc1-a277-36ddb689b1bf",
      "resource": {
        "resourceType": "PractitionerRole",
        "id": "d6a56cc4-0084-4fc1-a277-36ddb689b1bf",
        "practitioner": {
          "reference": "Practitioner/59037889-700e-465f-a4cb-667cae7beaed"
        },
        "organization": {
          "reference": "Organization/f907a5be-e270-4503-b63a-cf4af205bdbe"
        }
      }
    },
    {
      "fullUrl": "PractitionerRole/3af5c1f3-017d-422c-b2ea-3edbd7036f91",
      "resource": {
        "resourceType": "PractitionerRole",
        "id": "3af5c1f3-017d-422c-b2ea-3edbd7036f91",
        "practitioner": {
          "reference": "Practitioner/59037889-700e-465f-a4cb-667cae7beaed",
          "display": "Worksheet"
        }
      }
    },
    {
      "fullUrl": "Practitioner/59037889-700e-465f-a4cb-667cae7beaed",
      "resource": {
        "resourceType": "Practitioner",
        "id": "59037889-700e-465f-a4cb-667cae7beaed"
      }
    },
    {
      "fullUrl": "Organization/f907a5be-e270-4503-b63a-cf4af205bdbe",
      "resource": {
        "resourceType": "Organization",
        "id": "f907a5be-e270-4503-b63a-cf4af205bdbe",
        "alias": [
          "ZZZ VERIFICATION HOSPITAL"
        ]
      }
    },
    {
      "fullUrl": "Observation/7f4c1ad4-232d-4d2a-b4b1-baf18c32e704",
      "resource": {
        "resourceType": "Observation",
        "id": "7f4c1ad4-232d-4d2a-b4b1-baf18c32e704",
        "extension": [
          {
            "url": "https://ehealth.gov.hk/FHIR/1003543-LabTestNumericResult",
            "valueDecimal": 2.7
          },
          {
            "url": "https://ehealth.gov.hk/FHIR/1003545-LabReportableResult",
            "valueString": "2.7"
          }
        ],
        "status": "final",
        "code": {
          "coding": [
            {
              "system": "http://loinc.org",
              "code": "1834-1",
              "display": "Alpha-1-Fetoprotein [Mass/volume] in Serum or Plasma"
            },
            {
              "system": "https://ehealth.gov.hk/FHIR/HCP/local/LabTest",
              "code": "AFP",
              "display": "AFP"
            }
          ]
        },
        "subject": {
          "reference": "Patient/419a662e-cf78-4d99-be8f-9794126dbec2"
        },
        "valueQuantity": {
          "unit": "ug/L"
        },
        "referenceRange": [
          {
            "text": "f7.0\""
          }
        ]
      }
    },
    {
      "fullUrl": "Observation/ecce73f8-c791-4c84-bd93-9eca3feae683",
      "resource": {
        "resourceType": "Observation",
        "id": "ecce73f8-c791-4c84-bd93-9eca3feae683",
        "extension": [
          {
            "url": "https://ehealth.gov.hk/FHIR/1003543-LabTestNumericResult",
            "valueDecimal": 1.9
          },
          {
            "url": "https://ehealth.gov.hk/FHIR/1003545-LabReportableResult",
            "valueString": "1.9"
          }
        ],
        "status": "final",
        "code": {
          "coding": [
            {
              "system": "http://loinc.org",
              "code": "2039-6",
              "display": "Carcinoembryonic Ag [Mass/volume] in Serum or Plasma"
            },
            {
              "system": "https://ehealth.gov.hk/FHIR/HCP/local/LabTest",
              "code": "CEA",
              "display": "CEA"
            }
          ]
        },
        "subject": {
          "reference": "Patient/419a662e-cf78-4d99-be8f-9794126dbec2"
        },
        "valueQuantity": {
          "unit": "ug/L"
        },
        "referenceRange": [
          {
            "text": "<5.0"
          }
        ]
      }
    },
    {
      "fullUrl": "Observation/fdc1c6ec-d22b-4a97-8c39-2c7143fa2f3c3",
      "resource": {
        "resourceType": "Observation",
        "id": "fdc1c6ec-d22b-4a97-8c39-2c7143fa2f3c3",
        "extension": [
          {
            "url": "https://ehealth.gov.hk/FHIR/1003543-LabTestNumericResult",
            "valueDecimal": 0.3
          },
          {
            "url": "https://ehealth.gov.hk/FHIR/1003545-LabReportableResult",
            "valueString": "0.3"
          }
        ],
        "status": "final",
        "code": {
          "coding": [
            {
              "system": "http://loinc.org",
              "code": "2857-1",
              "display": "Prostate specific Ag [Mass/volume] in Serum or Plasma"
            },
            {
              "system": "https://ehealth.gov.hk/FHIR/HCP/local/LabTest",
              "code": "PSA",
              "display": "PSA"
            }
          ]
        },
        "subject": {
          "reference": "Patient/419a662e-cf78-4d99-be8f-9794126dbec2"
        },
        "valueQuantity": {
          "unit": "ug/L"
        },
        "referenceRange": [
          {
            "text": "f4.0\""
          }
        ]
      }
    },
    {
      "fullUrl": "Observation/ece56621-5cee-4256-962a-16947d1444344",
      "resource": {
        "resourceType": "Observation",
        "id": "ece56621-5cee-4256-962a-16947d1444344",
        "extension": [
          {
            "url": "https://ehealth.gov.hk/FHIR/1003543-LabTestNumericResult",
            "valueDecimal": 0.71
          },
          {
            "url": "https://ehealth.gov.hk/FHIR/1003545-LabReportableResult",
            "valueString": "0.71"
          }
        ],
        "status": "final",
        "code": {
          "coding": [
            {
              "system": "http://loinc.org",
              "code": "3016-3",
              "display": "Thyrotropin [Units/volume] in Serum or Plasma"
            },
            {
              "system": "https://ehealth.gov.hk/FHIR/HCP/local/LabTest",
              "code": "TSH",
              "display": "TSH"
            }
          ]
        },
        "subject": {
          "reference": "Patient/419a662e-cf78-4d99-be8f-9794126dbec2"
        },
        "valueQuantity": {
          "unit": "mIU/L"
        },
        "referenceRange": [
          {
            "text": "0.27 - 4.20"
          }
        ]
      }
    },
    {
      "fullUrl": "Observation/2574469e-818a-4c91-b943-9e652b1e2de6",
      "resource": {
        "resourceType": "Observation",
        "id": "2574469e-818a-4c91-b943-9e652b1e2de6",
        "extension": [
          {
            "url": "https://ehealth.gov.hk/FHIR/1003543-LabTestNumericResult",
            "valueDecimal": 5.4
          },
          {
            "url": "https://ehealth.gov.hk/FHIR/1003545-LabReportableResult",
            "valueString": "5.4"
          }
        ],
        "status": "final",
        "code": {
          "coding": [
            {
              "system": "http://loinc.org",
              "code": "14771-0",
              "display": "Fasting glucose [Moles/volume] in Serum or Plasma"
            },
            {
              "system": "https://ehealth.gov.hk/FHIR/HCP/local/LabTest",
              "code": "FBS",
              "display": "Glucose Fasting"
            }
          ]
        },
        "subject": {
          "reference": "Patient/419a662e-cf78-4d99-be8f-9794126dbec2"
        },
        "valueQuantity": {
          "unit": "mmol/L"
        },
        "referenceRange": [
          {
            "text": "3.9 - 6.0"
          }
        ]
      }
    },
    {
      "fullUrl": "Observation/b1315b24-d7f1-4073-94b0-d3b4d24d19a1",
      "resource": {
        "resourceType": "Observation",
        "id": "b1315b24-d7f1-4073-94b0-d3b4d24d19a1",
        "extension": [
          {
            "url": "https://ehealth.gov.hk/FHIR/1003543-LabTestNumericResult",
            "valueDecimal": 25
          },
          {
            "url": "https://ehealth.gov.hk/FHIR/1003545-LabReportableResult",
            "valueString": "25"
          }
        ],
        "status": "final",
        "code": {
          "coding": [
            {
              "system": "https://loinc.org",
              "code": "59261-8",
              "display": "Hemoglobin A1c/Hemoglobin.total in Blood by IFCC protocol"
            },
            {
              "system": "https://ehealth.gov.hk/FHIR/HCP/local/LabTest",
              "code": "XA1C",
              "display": "HbA1c (IFCC)"
            }
          ]
        },
        "subject": {
          "reference": "Patient/419a662e-cf78-4d99-be8f-9794126dbec2"
        },
        "valueQuantity": {
          "unit": "mmol/mol"
        },
        "referenceRange": [
          {
            "text": "20 - 42"
          }
        ]
      }
    },
    {
      "fullUrl": "Observation/52b57c3d-caa3-4aea-a475-07785c377541",
      "resource": {
        "resourceType": "Observation",
        "id": "52b57c3d-caa3-4aea-a475-07785c377541",
        "extension": [
          {
            "url": "https://ehealth.gov.hk/FHIR/1003543-LabTestNumericResult",
            "valueDecimal": 4.4
          },
          {
            "url": "https://ehealth.gov.hk/FHIR/1003545-LabReportableResult",
            "valueString": "4.4"
          }
        ],
        "status": "final",
        "code": {
          "coding": [
            {
              "system": "http://loinc.org",
              "code": "4548-4",
              "display": "Hemoglobin A1c/Hemoglobin.total in Blood"
            },
            {
              "system": "https://ehealth.gov.hk/FHIR/HCP/local/LabTest",
              "code": "XHBA1",
              "display": "HbA1c"
            }
          ]
        },
        "subject": {
          "reference": "Patient/419a662e-cf78-4d99-be8f-9794126dbec2"
        },
        "valueQuantity": {
          "unit": "%"
        },
        "referenceRange": [
          {
            "text": "4.0 - 6.0"
          }
        ]
      }
    },
    {
      "fullUrl": "Observation/6bb9ab62-90ef-4b5c-ba8d-1bf713b34887",
      "resource": {
        "resourceType": "Observation",
        "id": "6bb9ab62-90ef-4b5c-ba8d-1bf713b34887",
        "extension": [
          {
            "url": "https://ehealth.gov.hk/FHIR/1003545-LabReportableResult",
            "valueString": "g60\\"
          }
        ],
        "status": "final",
        "code": {
          "coding": [
            {
              "system": "http://loinc.org",
              "code": "33914-3",
              "display": "Glomerular filtration rate/1.73 sq M.predicted by Creatinine-based formula (MDRD)"
            },
            {
              "system": "https://ehealth.gov.hk/FHIR/HCP/local/LabTest",
              "code": "EGFRT",
              "display": "eGFR"
            }
          ]
        },
        "subject": {
          "reference": "Patient/419a662e-cf78-4d99-be8f-9794126dbec2"
        },
        "valueQuantity": {
          "unit": ""
        },
        "referenceRange": [
          {
            "text": "g60\""
          }
        ]
      }
    },
    {
      "fullUrl": "Observation/e8a4ca9e-436b-4bc5-aadc-e5cdda51e36c",
      "resource": {
        "resourceType": "Observation",
        "id": "e8a4ca9e-436b-4bc5-aadc-e5cdda51e36c",
        "extension": [
          {
            "url": "https://ehealth.gov.hk/FHIR/1003543-LabTestNumericResult",
            "valueDecimal": 1.8
          },
          {
            "url": "https://ehealth.gov.hk/FHIR/1003545-LabReportableResult",
            "valueString": "1.8"
          }
        ],
        "status": "final",
        "code": {
          "coding": [
            {
              "system": "http://loinc.org",
              "code": "1759-0",
              "display": "Albumin/Globulin [Mass Ratio] in Serum or Plasma"
            },
            {
              "system": "https://ehealth.gov.hk/FHIR/HCP/local/LabTest",
              "code": "A/G",
              "display": "A/G Ratio"
            }
          ]
        },
        "subject": {
          "reference": "Patient/419a662e-cf78-4d99-be8f-9794126dbec2"
        },
        "valueQuantity": {
          "unit": "-"
        },
        "referenceRange": [
          {
            "text": "0.8 - 2.0"
          }
        ]
      }
    },
    {
      "fullUrl": "Observation/62cbd4b4-383b-4883-a1dd-83dcdacf244f",
      "resource": {
        "resourceType": "Observation",
        "id": "62cbd4b4-383b-4883-a1dd-83dcdacf244f",
        "extension": [
          {
            "url": "https://ehealth.gov.hk/FHIR/1003543-LabTestNumericResult",
            "valueDecimal": 46
          },
          {
            "url": "https://ehealth.gov.hk/FHIR/1003545-LabReportableResult",
            "valueString": "46"
          }
        ],
        "status": "final",
        "code": {
          "coding": [
            {
              "system": "http://loinc.org",
              "code": "1751-7",
              "display": "Albumin [Mass/volume] in Serum or Plasma"
            },
            {
              "system": "https://ehealth.gov.hk/FHIR/HCP/local/LabTest",
              "code": "ALB",
              "display": "Albumin"
            }
          ]
        },
        "subject": {
          "reference": "Patient/419a662e-cf78-4d99-be8f-9794126dbec2"
        },
        "valueQuantity": {
          "unit": "g/L"
        },
        "referenceRange": [
          {
            "text": "40 - 49"
          }
        ]
      }
    },
    {
      "fullUrl": "Observation/e6f6455f-cc51-40b5-af36-32aa307041e4",
      "resource": {
        "resourceType": "Observation",
        "id": "e6f6455f-cc51-40b5-af36-32aa307041e4",
        "extension": [
          {
            "url": "https://ehealth.gov.hk/FHIR/1003543-LabTestNumericResult",
            "valueDecimal": 90
          },
          {
            "url": "https://ehealth.gov.hk/FHIR/1003545-LabReportableResult",
            "valueString": "90"
          }
        ],
        "status": "final",
        "code": {
          "coding": [
            {
              "system": "http://loinc.org",
              "code": "6768-6",
              "display": "Alkaline phosphatase [Enzymatic activity/volume] in Serum or Plasma"
            },
            {
              "system": "https://ehealth.gov.hk/FHIR/HCP/local/LabTest",
              "code": "ALP",
              "display": "ALP"
            }
          ]
        },
        "subject": {
          "reference": "Patient/419a662e-cf78-4d99-be8f-9794126dbec2"
        },
        "valueQuantity": {
          "unit": "U/L"
        },
        "referenceRange": [
          {
            "text": "40 - 129"
          }
        ]
      }
    },
    {
      "fullUrl": "Observation/975dc579-7da3-4fb7-8fb7-73fd8fe57c38",
      "resource": {
        "resourceType": "Observation",
        "id": "975dc579-7da3-4fb7-8fb7-73fd8fe57c38",
        "extension": [
          {
            "url": "https://ehealth.gov.hk/FHIR/1003543-LabTestNumericResult",
            "valueDecimal": 20
          },
          {
            "url": "https://ehealth.gov.hk/FHIR/1003545-LabReportableResult",
            "valueString": "20"
          }
        ],
        "status": "final",
        "code": {
          "coding": [
            {
              "system": "http://loinc.org",
              "code": "1742-6",
              "display": "Alanine aminotransferase [Enzymatic activity/volume] in Serum or Plasma"
            },
            {
              "system": "https://ehealth.gov.hk/FHIR/HCP/local/LabTest",
              "code": "ALT",
              "display": "ALT (SGPT)"
            }
          ]
        },
        "subject": {
          "reference": "Patient/419a662e-cf78-4d99-be8f-9794126dbec2"
        },
        "valueQuantity": {
          "unit": "U/L"
        },
        "referenceRange": [
          {
            "text": "f41\\"
          }
        ]
      }
    },
    {
      "fullUrl": "Observation/c8b4ce1e-37e6-4fd5-996b-578c188023c4",
      "resource": {
        "resourceType": "Observation",
        "id": "c8b4ce1e-37e6-4fd5-996b-578c188023c4",
        "extension": [
          {
            "url": "https://ehealth.gov.hk/FHIR/1003543-LabTestNumericResult",
            "valueDecimal": 19
          },
          {
            "url": "https://ehealth.gov.hk/FHIR/1003545-LabReportableResult",
            "valueString": "19"
          }
        ],
        "status": "final",
        "code": {
          "coding": [
            {
              "system": "http://loinc.org",
              "code": "1920-8",
              "display": "Aspartate aminotransferase [Enzymatic activity/volume] in Serum or Plasma"
            },
            {
              "system": "https://ehealth.gov.hk/FHIR/HCP/local/LabTest",
              "code": "AST",
              "display": "AST (SGOT)"
            }
          ]
        },
        "subject": {
          "reference": "Patient/419a662e-cf78-4d99-be8f-9794126dbec2"
        },
        "valueQuantity": {
          "unit": "U/L"
        },
        "referenceRange": [
          {
            "text": "f40\\"
          }
        ]
      }
    },
    {
      "fullUrl": "Observation/cfa827a4-6ec1-4b2a-b915-fe376151190e",
      "resource": {
        "resourceType": "Observation",
        "id": "cfa827a4-6ec1-4b2a-b915-fe376151190e",
        "extension": [
          {
            "url": "https://ehealth.gov.hk/FHIR/1003543-LabTestNumericResult",
            "valueDecimal": 5
          },
          {
            "url": "https://ehealth.gov.hk/FHIR/1003545-LabReportableResult",
            "valueString": "5"
          }
        ],
        "status": "final",
        "code": {
          "coding": [
            {
              "system": "http://loinc.org",
              "code": "29760-6",
              "display": "Bilirubin.conjugated [Moles/volume] in Serum or Plasma"
            },
            {
              "system": "https://ehealth.gov.hk/FHIR/HCP/local/LabTest",
              "code": "DBIL",
              "display": "Bili. Direct"
            }
          ]
        },
        "subject": {
          "reference": "Patient/419a662e-cf78-4d99-be8f-9794126dbec2"
        },
        "valueQuantity": {
          "unit": "?mol/L"
        },
        "referenceRange": [
          {
            "text": "f5\\"
          }
        ]
      }
    },
    {
      "fullUrl": "Observation/3aba85cd-ad22-4144-887c-213993ee320c",
      "resource": {
        "resourceType": "Observation",
        "id": "3aba85cd-ad22-4144-887c-213993ee320c",
        "extension": [
          {
            "url": "https://ehealth.gov.hk/FHIR/1003543-LabTestNumericResult",
            "valueDecimal": 22
          },
          {
            "url": "https://ehealth.gov.hk/FHIR/1003545-LabReportableResult",
            "valueString": "22"
          }
        ],
        "status": "final",
        "code": {
          "coding": [
            {
              "system": "http://loinc.org",
              "code": "2324-2",
              "display": "Gamma glutamyl transferase [Enzymatic activity/volume] in Serum or Plasma"
            },
            {
              "system": "https://ehealth.gov.hk/FHIR/HCP/local/LabTest",
              "code": "GGT",
              "display": "GGT"
            }
          ]
        },
        "subject": {
          "reference": "Patient/419a662e-cf78-4d99-be8f-9794126dbec2"
        },
        "valueQuantity": {
          "unit": "U/L"
        },
        "referenceRange": [
          {
            "text": "OCT-71"
          }
        ]
      }
    },
    {
      "fullUrl": "Observation/f427c8f1-2d17-43c4-9110-c62e9e12be8a",
      "resource": {
        "resourceType": "Observation",
        "id": "f427c8f1-2d17-43c4-9110-c62e9e12be8a",
        "extension": [
          {
            "url": "https://ehealth.gov.hk/FHIR/1003543-LabTestNumericResult",
            "valueDecimal": 26
          },
          {
            "url": "https://ehealth.gov.hk/FHIR/1003545-LabReportableResult",
            "valueString": "26"
          }
        ],
        "status": "final",
        "code": {
          "coding": [
            {
              "system": "http://loinc.org",
              "code": "10834-0",
              "display": "Globulin [Mass/volume] in Serum by calculation"
            },
            {
              "system": "https://ehealth.gov.hk/FHIR/HCP/local/LabTest",
              "code": "GLO",
              "display": "Globulin"
            }
          ]
        },
        "subject": {
          "reference": "Patient/419a662e-cf78-4d99-be8f-9794126dbec2"
        },
        "valueQuantity": {
          "unit": "g/L"
        },
        "referenceRange": [
          {
            "text": "20 - 38"
          }
        ]
      }
    },
    {
      "fullUrl": "Observation/1c93923e-86a7-4fc6-88f9-faff36251aec",
      "resource": {
        "resourceType": "Observation",
        "id": "1c93923e-86a7-4fc6-88f9-faff36251aec",
        "extension": [
          {
            "url": "https://ehealth.gov.hk/FHIR/1003543-LabTestNumericResult",
            "valueDecimal": 14
          },
          {
            "url": "https://ehealth.gov.hk/FHIR/1003545-LabReportableResult",
            "valueString": "14"
          }
        ],
        "status": "final",
        "code": {
          "coding": [
            {
              "system": "http://loinc.org",
              "code": "14631-6",
              "display": "Bilirubin.total [Moles/volume] in Serum or Plasma"
            },
            {
              "system": "https://ehealth.gov.hk/FHIR/HCP/local/LabTest",
              "code": "TBIL",
              "display": "Bili. Total"
            }
          ]
        },
        "subject": {
          "reference": "Patient/419a662e-cf78-4d99-be8f-9794126dbec2"
        },
        "valueQuantity": {
          "unit": "?mol/L"
        },
        "referenceRange": [
          {
            "text": "f21\""
          }
        ]
      }
    },
    {
      "fullUrl": "Observation/ac70b528-8a93-4447-8802-98db3891b32d",
      "resource": {
        "resourceType": "Observation",
        "id": "ac70b528-8a93-4447-8802-98db3891b32d",
        "extension": [
          {
            "url": "https://ehealth.gov.hk/FHIR/1003543-LabTestNumericResult",
            "valueDecimal": 72
          },
          {
            "url": "https://ehealth.gov.hk/FHIR/1003545-LabReportableResult",
            "valueString": "72"
          }
        ],
        "status": "final",
        "code": {
          "coding": [
            {
              "system": "http://loinc.org",
              "code": "2885-2",
              "display": "Protein [Mass/volume] in Serum or Plasma"
            },
            {
              "system": "https://ehealth.gov.hk/FHIR/HCP/local/LabTest",
              "code": "TP",
              "display": "Protein(Total)"
            }
          ]
        },
        "subject": {
          "reference": "Patient/419a662e-cf78-4d99-be8f-9794126dbec2"
        },
        "valueQuantity": {
          "unit": "g/L"
        },
        "referenceRange": [
          {
            "text": "64 - 83"
          }
        ]
      }
    },
    {
      "fullUrl": "Observation/552f42b9-9423-4a17-8baa-3d08b92e6cd4",
      "resource": {
        "resourceType": "Observation",
        "id": "552f42b9-9423-4a17-8baa-3d08b92e6cd4",
        "extension": [
          {
            "url": "https://ehealth.gov.hk/FHIR/1003543-LabTestNumericResult",
            "valueDecimal": 1.3
          },
          {
            "url": "https://ehealth.gov.hk/FHIR/1003545-LabReportableResult",
            "valueString": "1.3"
          }
        ],
        "status": "final",
        "code": {
          "coding": [
            {
              "system": "http://loinc.org",
              "code": "14646-4",
              "display": "Cholesterol in HDL [Moles/volume] in Serum or Plasma"
            },
            {
              "system": "https://ehealth.gov.hk/FHIR/HCP/local/LabTest",
              "code": "AHDL",
              "display": "HDL Cholesterol"
            }
          ]
        },
        "subject": {
          "reference": "Patient/419a662e-cf78-4d99-be8f-9794126dbec2"
        },
        "valueQuantity": {
          "unit": "mmol/L"
        },
        "referenceRange": [
          {
            "text": "g1.0\""
          }
        ]
      }
    },
    {
      "fullUrl": "Observation/7062ac49-0c2f-4a66-9851-a94d71e5bb77",
      "resource": {
        "resourceType": "Observation",
        "id": "7062ac49-0c2f-4a66-9851-a94d71e5bb77",
        "extension": [
          {
            "url": "https://ehealth.gov.hk/FHIR/1003543-LabTestNumericResult",
            "valueDecimal": 3.8
          },
          {
            "url": "https://ehealth.gov.hk/FHIR/1003545-LabReportableResult",
            "valueString": "3.8"
          }
        ],
        "status": "final",
        "code": {
          "coding": [
            {
              "system": "http://loinc.org",
              "code": "39469-2",
              "display": "Cholesterol in LDL [Moles/volume] in Serum or Plasma by calculation"
            },
            {
              "system": "https://ehealth.gov.hk/FHIR/HCP/local/LabTest",
              "code": "ALDL",
              "display": "LDL Cholesterol"
            }
          ]
        },
        "subject": {
          "reference": "Patient/419a662e-cf78-4d99-be8f-9794126dbec2"
        },
        "valueQuantity": {
          "unit": "mmol/L"
        },
        "referenceRange": [
          {
            "text": "<4.1"
          }
        ]
      }
    },
    {
      "fullUrl": "Observation/9c9f1ae1-a365-4b72-b17c-a59c770fe2d2",
      "resource": {
        "resourceType": "Observation",
        "id": "9c9f1ae1-a365-4b72-b17c-a59c770fe2d2",
        "extension": [
          {
            "url": "https://ehealth.gov.hk/FHIR/1003543-LabTestNumericResult",
            "valueDecimal": 3.9
          },
          {
            "url": "https://ehealth.gov.hk/FHIR/1003545-LabReportableResult",
            "valueString": "3.9"
          }
        ],
        "status": "final",
        "code": {
          "coding": [
            {
              "system": "http://loinc.org",
              "code": "32309-7",
              "display": "Cholesterol.total/Cholesterol in HDL [Molar ratio] in Serum or Plasma"
            },
            {
              "system": "https://ehealth.gov.hk/FHIR/HCP/local/LabTest",
              "code": "C/H",
              "display": "Chol/HDL Ratio"
            }
          ]
        },
        "subject": {
          "reference": "Patient/419a662e-cf78-4d99-be8f-9794126dbec2"
        },
        "valueQuantity": {
          "unit": ""
        },
        "interpretation": [
          {
            "coding": [
              {
                "system": "https://ehealth.gov.hk/fhir/AbnormalResultIndCode",
                "code": "H",
                "display": "High"
              }
            ],
            "text": "High"
          }
        ],
        "referenceRange": [
          {
            "text": "<3.5"
          }
        ]
      }
    },
    {
      "fullUrl": "Observation/ffc940f3-1c63-4fd5-a8bd-eababd895e6c",
      "resource": {
        "resourceType": "Observation",
        "id": "ffc940f3-1c63-4fd5-a8bd-eababd895e6c",
        "extension": [
          {
            "url": "https://ehealth.gov.hk/FHIR/1003543-LabTestNumericResult",
            "valueDecimal": 5.1
          },
          {
            "url": "https://ehealth.gov.hk/FHIR/1003545-LabReportableResult",
            "valueString": "5.1"
          }
        ],
        "status": "final",
        "code": {
          "coding": [
            {
              "system": "http://loinc.org",
              "code": "14647-2",
              "display": "Cholesterol [Moles/volume] in Serum or Plasma"
            },
            {
              "system": "https://ehealth.gov.hk/FHIR/HCP/local/LabTest",
              "code": "CHOL",
              "display": "Cholesterol"
            }
          ]
        },
        "subject": {
          "reference": "Patient/419a662e-cf78-4d99-be8f-9794126dbec2"
        },
        "valueQuantity": {
          "unit": "mmol/L"
        },
        "referenceRange": [
          {
            "text": "<5.2"
          }
        ]
      }
    },
    {
      "fullUrl": "Observation/257dc93b-ae7b-4127-85cb-fba81168cb74",
      "resource": {
        "resourceType": "Observation",
        "id": "257dc93b-ae7b-4127-85cb-fba81168cb74",
        "extension": [
          {
            "url": "https://ehealth.gov.hk/FHIR/1003543-LabTestNumericResult",
            "valueDecimal": 3.8
          },
          {
            "url": "https://ehealth.gov.hk/FHIR/1003545-LabReportableResult",
            "valueString": "3.8"
          }
        ],
        "status": "final",
        "code": {
          "coding": [
            {
              "system": "http://loinc.org",
              "code": "70204-3",
              "display": "Cholesterol non HDL [Moles/volume] in Serum or Plasma"
            },
            {
              "system": "https://ehealth.gov.hk/FHIR/HCP/local/LabTest",
              "code": "NHDLC",
              "display": "Non-HDL Cholesterol"
            }
          ]
        },
        "subject": {
          "reference": "Patient/419a662e-cf78-4d99-be8f-9794126dbec2"
        },
        "valueQuantity": {
          "unit": "mmol/L"
        },
        "referenceRange": [
          {
            "text": "<4.9"
          }
        ]
      }
    },
    {
      "fullUrl": "Observation/8e8515cf-07d3-4455-9296-46afe004ac58",
      "resource": {
        "resourceType": "Observation",
        "id": "8e8515cf-07d3-4455-9296-46afe004ac58",
        "extension": [
          {
            "url": "https://ehealth.gov.hk/FHIR/1003543-LabTestNumericResult",
            "valueDecimal": 1.4
          },
          {
            "url": "https://ehealth.gov.hk/FHIR/1003545-LabReportableResult",
            "valueString": "1.4"
          }
        ],
        "status": "final",
        "code": {
          "coding": [
            {
              "system": "http://loinc.org",
              "code": "14927-8",
              "display": "Triglyceride [Moles/volume] in Serum or Plasma"
            },
            {
              "system": "https://ehealth.gov.hk/FHIR/HCP/local/LabTest",
              "code": "TGL",
              "display": "Triglycerides"
            }
          ]
        },
        "subject": {
          "reference": "Patient/419a662e-cf78-4d99-be8f-9794126dbec2"
        },
        "valueQuantity": {
          "unit": "mmol/L"
        },
        "referenceRange": [
          {
            "text": "<1.7"
          }
        ]
      }
    },
    {
      "fullUrl": "Observation/1cd35744-8a31-47e2-9853-c6e48bb78eb3",
      "resource": {
        "resourceType": "Observation",
        "id": "1cd35744-8a31-47e2-9853-c6e48bb78eb3",
        "extension": [
          {
            "url": "https://ehealth.gov.hk/FHIR/1003543-LabTestNumericResult",
            "valueDecimal": 4
          },
          {
            "url": "https://ehealth.gov.hk/FHIR/1003545-LabReportableResult",
            "valueString": "4"
          }
        ],
        "status": "final",
        "code": {
          "coding": [
            {
              "system": "http://loinc.org",
              "code": "22664-7",
              "display": "Urea [Moles/volume] in Serum or Plasma"
            },
            {
              "system": "https://ehealth.gov.hk/FHIR/HCP/local/LabTest",
              "code": "BUN",
              "display": "Urea"
            }
          ]
        },
        "subject": {
          "reference": "Patient/419a662e-cf78-4d99-be8f-9794126dbec2"
        },
        "valueQuantity": {
          "unit": "mmol/L"
        },
        "referenceRange": [
          {
            "text": "2.1 - 7.1"
          }
        ]
      }
    },
    {
      "fullUrl": "Observation/2ab8631f-2720-4ccf-bf14-09362783b005",
      "resource": {
        "resourceType": "Observation",
        "id": "2ab8631f-2720-4ccf-bf14-09362783b005",
        "extension": [
          {
            "url": "https://ehealth.gov.hk/FHIR/1003543-LabTestNumericResult",
            "valueDecimal": 2.33
          },
          {
            "url": "https://ehealth.gov.hk/FHIR/1003545-LabReportableResult",
            "valueString": "2.33"
          }
        ],
        "status": "final",
        "code": {
          "coding": [
            {
              "system": "http://loinc.org",
              "code": "2000-8",
              "display": "Calcium [Moles/volume] in Serum or Plasma"
            },
            {
              "system": "https://ehealth.gov.hk/FHIR/HCP/local/LabTest",
              "code": "CA",
              "display": "Calcium"
            }
          ]
        },
        "subject": {
          "reference": "Patient/419a662e-cf78-4d99-be8f-9794126dbec2"
        },
        "valueQuantity": {
          "unit": "mmol/L"
        },
        "referenceRange": [
          {
            "text": "2.15 - 2.50"
          }
        ]
      }
    },
    {
      "fullUrl": "Observation/6e34c0ea-4650-46c3-9d48-885a58e32023",
      "resource": {
        "resourceType": "Observation",
        "id": "6e34c0ea-4650-46c3-9d48-885a58e32023",
        "extension": [
          {
            "url": "https://ehealth.gov.hk/FHIR/1003543-LabTestNumericResult",
            "valueDecimal": 103
          },
          {
            "url": "https://ehealth.gov.hk/FHIR/1003545-LabReportableResult",
            "valueString": "103"
          }
        ],
        "status": "final",
        "code": {
          "coding": [
            {
              "system": "http://loinc.org",
              "code": "2075-0",
              "display": "Chloride [Moles/volume] in Serum or Plasma"
            },
            {
              "system": "https://ehealth.gov.hk/FHIR/HCP/local/LabTest",
              "code": "CL",
              "display": "Chloride#"
            }
          ]
        },
        "subject": {
          "reference": "Patient/419a662e-cf78-4d99-be8f-9794126dbec2"
        },
        "valueQuantity": {
          "unit": "mmol/L"
        },
        "referenceRange": [
          {
            "text": "98 - 107"
          }
        ]
      }
    },
    {
      "fullUrl": "Observation/58a431b5-cca0-41fb-bab1-175acc6b76f8",
      "resource": {
        "resourceType": "Observation",
        "id": "58a431b5-cca0-41fb-bab1-175acc6b76f8",
        "extension": [
          {
            "url": "https://ehealth.gov.hk/FHIR/1003543-LabTestNumericResult",
            "valueDecimal": 93
          },
          {
            "url": "https://ehealth.gov.hk/FHIR/1003545-LabReportableResult",
            "valueString": "93"
          }
        ],
        "status": "final",
        "code": {
          "coding": [
            {
              "system": "http://loinc.org",
              "code": "14682-9",
              "display": "Creatinine [Moles/volume] in Serum or Plasma"
            },
            {
              "system": "https://ehealth.gov.hk/FHIR/HCP/local/LabTest",
              "code": "CREA",
              "display": "Creatinine"
            }
          ]
        },
        "subject": {
          "reference": "Patient/419a662e-cf78-4d99-be8f-9794126dbec2"
        },
        "valueQuantity": {
          "unit": "?mol/L"
        },
        "referenceRange": [
          {
            "text": "62 - 106"
          }
        ]
      }
    },
    {
      "fullUrl": "Observation/ca34b885-8b0b-4d53-9b0b-94408216e491",
      "resource": {
        "resourceType": "Observation",
        "id": "ca34b885-8b0b-4d53-9b0b-94408216e491",
        "extension": [
          {
            "url": "https://ehealth.gov.hk/FHIR/1003543-LabTestNumericResult",
            "valueDecimal": 4.7
          },
          {
            "url": "https://ehealth.gov.hk/FHIR/1003545-LabReportableResult",
            "valueString": "4.7"
          }
        ],
        "status": "final",
        "code": {
          "coding": [
            {
              "system": "http://loinc.org",
              "code": "2823-3",
              "display": "Potassium [Moles/volume] in Serum or Plasma"
            },
            {
              "system": "https://ehealth.gov.hk/FHIR/HCP/local/LabTest",
              "code": "K",
              "display": "Potassium"
            }
          ]
        },
        "subject": {
          "reference": "Patient/419a662e-cf78-4d99-be8f-9794126dbec2"
        },
        "valueQuantity": {
          "unit": "mmol/L"
        },
        "referenceRange": [
          {
            "text": "3.5 - 5.1"
          }
        ]
      }
    },
    {
      "fullUrl": "Observation/79bddc5d-83d3-4b64-a3de-5b8c184e2358",
      "resource": {
        "resourceType": "Observation",
        "id": "79bddc5d-83d3-4b64-a3de-5b8c184e2358",
        "extension": [
          {
            "url": "https://ehealth.gov.hk/FHIR/1003543-LabTestNumericResult",
            "valueDecimal": 139
          },
          {
            "url": "https://ehealth.gov.hk/FHIR/1003545-LabReportableResult",
            "valueString": "139"
          }
        ],
        "status": "final",
        "code": {
          "coding": [
            {
              "system": "http://loinc.org",
              "code": "2951-2",
              "display": "Sodium [Moles/volume] in Serum or Plasma"
            },
            {
              "system": "https://ehealth.gov.hk/FHIR/HCP/local/LabTest",
              "code": "NA",
              "display": "Sodium"
            }
          ]
        },
        "subject": {
          "reference": "Patient/419a662e-cf78-4d99-be8f-9794126dbec2"
        },
        "valueQuantity": {
          "unit": "mmol/L"
        },
        "referenceRange": [
          {
            "text": "136 - 145"
          }
        ]
      }
    },
    {
      "fullUrl": "Observation/5fb99a45-b723-4b6b-81e7-70b15763ac28",
      "resource": {
        "resourceType": "Observation",
        "id": "5fb99a45-b723-4b6b-81e7-70b15763ac28",
        "extension": [
          {
            "url": "https://ehealth.gov.hk/FHIR/1003543-LabTestNumericResult",
            "valueDecimal": 1.03
          },
          {
            "url": "https://ehealth.gov.hk/FHIR/1003545-LabReportableResult",
            "valueString": "1.03"
          }
        ],
        "status": "final",
        "code": {
          "coding": [
            {
              "system": "http://loinc.org",
              "code": "14879-1",
              "display": "Phosphate [Moles/volume] in Serum or Plasma"
            },
            {
              "system": "https://ehealth.gov.hk/FHIR/HCP/local/LabTest",
              "code": "PHOS",
              "display": "Phosphorus"
            }
          ]
        },
        "subject": {
          "reference": "Patient/419a662e-cf78-4d99-be8f-9794126dbec2"
        },
        "valueQuantity": {
          "unit": "mmol/L"
        },
        "referenceRange": [
          {
            "text": "0.81 - 1.45"
          }
        ]
      }
    },
    {
      "fullUrl": "Observation/e4958b52-9679-403a-89b5-a4035e0940a6",
      "resource": {
        "resourceType": "Observation",
        "id": "e4958b52-9679-403a-89b5-a4035e0940a6",
        "extension": [
          {
            "url": "https://ehealth.gov.hk/FHIR/1003543-LabTestNumericResult",
            "valueDecimal": 28
          },
          {
            "url": "https://ehealth.gov.hk/FHIR/1003545-LabReportableResult",
            "valueString": "28"
          }
        ],
        "status": "final",
        "code": {
          "coding": [
            {
              "system": "http://loinc.org",
              "code": "1963-8",
              "display": "Bicarbonate [Moles/volume] in Serum"
            },
            {
              "system": "https://ehealth.gov.hk/FHIR/HCP/local/LabTest",
              "code": "TCO2",
              "display": "Bicarbonate#"
            }
          ]
        },
        "subject": {
          "reference": "Patient/419a662e-cf78-4d99-be8f-9794126dbec2"
        },
        "valueQuantity": {
          "unit": "mmol/L"
        },
        "referenceRange": [
          {
            "text": "22 - 29"
          }
        ]
      }
    },
    {
      "fullUrl": "Observation/598392b8-1ad3-4ffa-bb1b-7983f69cf252",
      "resource": {
        "resourceType": "Observation",
        "id": "598392b8-1ad3-4ffa-bb1b-7983f69cf252",
        "extension": [
          {
            "url": "https://ehealth.gov.hk/FHIR/1003543-LabTestNumericResult",
            "valueDecimal": 0.39
          },
          {
            "url": "https://ehealth.gov.hk/FHIR/1003545-LabReportableResult",
            "valueString": "0.39"
          }
        ],
        "status": "final",
        "code": {
          "coding": [
            {
              "system": "http://loinc.org",
              "code": "14933-6",
              "display": "Urate [Moles/volume] in Serum or Plasma"
            },
            {
              "system": "https://ehealth.gov.hk/FHIR/HCP/local/LabTest",
              "code": "URCA",
              "display": "Uric Acid"
            }
          ]
        },
        "subject": {
          "reference": "Patient/419a662e-cf78-4d99-be8f-9794126dbec2"
        },
        "valueQuantity": {
          "unit": "mmol/L"
        },
        "referenceRange": [
          {
            "text": "0.20 - 0.42"
          }
        ]
      }
    },
    {
      "fullUrl": "Specimen/b74bd922-5304-4f28-bdc9-c249a18ab43a",
      "resource": {
        "resourceType": "Specimen",
        "id": "b74bd922-5304-4f28-bdc9-c249a18ab43a",
        "extension": [
          {
            "url": "1003530-SpecimenDetail",
            "valueString": "Left lower quadrant"
          }
        ],
        "type": {
          "coding": [
            {
              "system": "https://ehealth.gov.hk/FHIR/HCP/local/SpecimenType",
              "code": "BLOOD",
              "display": "Blood"
            }
          ]
        },
        "subject": {
          "reference": "Patient/419a662e-cf78-4d99-be8f-9794126dbec2"
        },
        "receivedTime": "2021-02-25T11:35:15.000+08:00",
        "request": [
          {
            "reference": "ServiceRequest/31ccc180-e5f4-4a28-bbb5-788227ac36df"
          }
        ],
        "collection": {
          "collectedDateTime": "2021-02-25T11:35:15.000+08:00"
        }
      }
    }
  ]
}
